{
  "resourceType": "Bundle",
  "id": "F68CEA42-E8A0-D799-C874-163048F0D390",
  "identifier": {
    "system": "https://tools.ietf.org/html/rfc4122",
    "value": "A7B86F8D-1DBD-FC28-E050-D20AE3A215F0"
  },
  "type": "message",
  "entry": [
    {
      "resource": {
        "resourceType": "MessageHeader",
        "id": "859F8240-D02F-4EA3-8F7F-0AED7B4D7D4E",
        "eventCoding": {
          "system": "https://fhir.nhs.uk/R4/CodeSystem/message-event",
          "code": "prescription-order",
          "display": "Prescription Order"
        },
        "sender": {
          "reference": "urn:uuid:DBAA616B-E23C-4D53-0F82-B2D178DB79CA",
          "display": "ANDREW CHANDLER"
        },
        "source": {
          "name": "PAS",
          "endpoint": "https://fhir.mynhstrust.nhs.uk/R4"
        },
        "focus": [
          {
            "reference": "urn:uuid:28828C55-8FA7-42D7-916F-FCF076E0C10E"
          },
          {
            "reference": "urn:uuid:A7B86F8D-1D81-FC28-E050-D20AE3A215F0"
          },
          {
            "reference": "urn:uuid:A7B86F8D-1D86-FC28-E050-D20AE3A215F0"
          },
          {
            "reference": "urn:uuid:A7B86F8D-1D8B-FC28-E050-D20AE3A215F0"
          },
          {
            "reference": "urn:uuid:A7B86F8D-1D90-FC28-E050-D20AE3A215F0"
          },
          {
            "reference": "urn:uuid:B96806F2-0E43-4046-30F3-BD444965AFB3"
          },
          {
            "reference": "urn:uuid:DBAA616B-E23C-4D53-0F82-B2D178DB79CA"
          },
          {
            "reference": "urn:uuid:D4B569E7-CCF6-4BB2-029B-34B6F3E82ACF"
          },
          {
            "reference": "urn:uuid:B65DD3A2-9551-45A3-3E9D-342F8DE14D8F"
          }
        ]
      },
      "fullUrl": "urn:uuid:859F8240-D02F-4EA3-8F7F-0AED7B4D7D4E"
    },
    {
      "fullUrl": "urn:uuid:28828C55-8FA7-42D7-916F-FCF076E0C10E",
      "resource": {
        "resourceType": "Provenance",
        "id": "28828C55-8FA7-42D7-916F-FCF076E0C10E",
        "target": [
          {
            "reference": "urn:uuid:A7B86F8D-1D81-FC28-E050-D20AE3A215F0"
          },
          {
            "reference": "urn:uuid:A7B86F8D-1D86-FC28-E050-D20AE3A215F0"
          },
          {
            "reference": "urn:uuid:A7B86F8D-1D8B-FC28-E050-D20AE3A215F0"
          },
          {
            "reference": "urn:uuid:A7B86F8D-1D90-FC28-E050-D20AE3A215F0"
          },
          {
            "reference": "urn:uuid:B96806F2-0E43-4046-30F3-BD444965AFB3"
          },
          {
            "reference": "urn:uuid:DBAA616B-E23C-4D53-0F82-B2D178DB79CA"
          },
          {
            "reference": "urn:uuid:D4B569E7-CCF6-4BB2-029B-34B6F3E82ACF"
          },
          {
            "reference": "urn:uuid:B65DD3A2-9551-45A3-3E9D-342F8DE14D8F"
          }
        ],
        "recorded": "2008-02-27T11:38:00+00:00",
        "agent": [
          {
            "who": {
              "reference": "urn:uuid:DBAA616B-E23C-4D53-0F82-B2D178DB79CA"
            }
          }
        ],
        "signature": [
          {
            "type": [
              {
                "system": "urn:iso-astm:E1762-95:2013",
                "code": "1.2.840.10065.1.12.1.1"
              }
            ],
            "when": "2008-02-27T11:38:00+00:00",
            "who": {
              "reference": "urn:uuid:DBAA616B-E23C-4D53-0F82-B2D178DB79CA"
            },
            "data": ""
          }
        ]
      }
    },
    {
      "resource": {
        "resourceType": "MedicationRequest",
        "id": "A7B86F8D-1D81-FC28-E050-D20AE3A215F0",
        "extension": [
          {
            "url": "https://fhir.nhs.uk/R4/StructureDefinition/Extension-prescriptionType",
            "valueCoding": {
              "system": "https://fhir.nhs.uk/R4/CodeSystem/prescription-type",
              "code": "0101"
            }
          },
          {
            "url": "https://fhir.nhs.uk/R4/StructureDefinition/Extension-DM-ResponsiblePractitioner",
            "valueReference": {
              "reference": "urn:uuid:DBAA616B-E23C-4D53-0F82-B2D178DB79CA"
            }
          }
        ],
        "identifier": [
          {
            "system": "https://fhir.nhs.uk/Id/prescription-order-item-number",
            "value": "A7B86F8D-1D81-FC28-E050-D20AE3A215F0"
          }
        ],
        "groupIdentifier": {
          "extension": [
            {
              "url": "https://fhir.nhs.uk/R4/StructureDefinition/Extension-PrescriptionId",
              "valueIdentifier": {
                "system": "https://fhir.nhs.uk/Id/prescription",
                "value": "A7B86F8D-1D02-FC28-E050-D20AE3A215F0"
              }
            }
          ],
          "system": "https://fhir.nhs.uk/Id/prescription-order-number",
          "value": "4D62E6-D81015-07E5FD"
        },
        "status": "active",
        "intent": "order",
        "medicationCodeableConcept": {
          "coding": [
            {
              "system": "http://snomed.info/sct",
              "code": "15748611000001101",
              "display": "DermaSilk round neck shirt adult female small (Espere Healthcare Ltd)"
            }
          ]
        },
        "dispenseRequest": {
          "extension": [
            {
              "url": "https://fhir.nhs.uk/R4/StructureDefinition/Extension-performerSiteType",
              "valueCoding": {
                "system": "https://fhir.nhs.uk/R4/CodeSystem/dispensing-site-preference",
                "code": "0004"
              }
            }
          ],
          "quantity": {
            "value": 1,
            "unit": "device",
            "system": "http://snomed.info/sct",
            "code": "3318711000001107"
          }
        },
        "authoredOn": "2020-06-10T12:06:00+00:00",
        "courseOfTherapyType": {
          "coding": [
            {
              "system": "https://fhir.nhs.uk/R4/CodeSystem/medicationrequest-course-of-therapy",
              "code": "continuous-repeat-dispensing",
              "display": "Continuous long term (repeat dispensing)"
            }
          ]
        },
        "dosageInstruction": [
          {
            "text": "As Directed"
          }
        ],
        "subject": {
          "reference": "urn:uuid:B96806F2-0E43-4046-30F3-BD444965AFB3"
        },
        "requester": {
          "reference": "urn:uuid:DBAA616B-E23C-4D53-0F82-B2D178DB79CA"
        },
        "recorder": {
          "reference": "urn:uuid:DBAA616B-E23C-4D53-0F82-B2D178DB79CA"
        },
        "substitution": {
          "allowedBoolean": false
        }
      },
      "fullUrl": "urn:uuid:A7B86F8D-1D81-FC28-E050-D20AE3A215F0"
    },
    {
      "resource": {
        "resourceType": "MedicationRequest",
        "id": "A7B86F8D-1D86-FC28-E050-D20AE3A215F0",
        "extension": [
          {
            "url": "https://fhir.nhs.uk/R4/StructureDefinition/Extension-prescriptionType",
            "valueCoding": {
              "system": "https://fhir.nhs.uk/R4/CodeSystem/prescription-type",
              "code": "0101"
            }
          },
          {
            "url": "https://fhir.nhs.uk/R4/StructureDefinition/Extension-DM-ResponsiblePractitioner",
            "valueReference": {
              "reference": "urn:uuid:DBAA616B-E23C-4D53-0F82-B2D178DB79CA"
            }
          }
        ],
        "identifier": [
          {
            "system": "https://fhir.nhs.uk/Id/prescription-order-item-number",
            "value": "A7B86F8D-1D86-FC28-E050-D20AE3A215F0"
          }
        ],
        "groupIdentifier": {
          "extension": [
            {
              "url": "https://fhir.nhs.uk/R4/StructureDefinition/Extension-PrescriptionId",
              "valueIdentifier": {
                "system": "https://fhir.nhs.uk/Id/prescription",
                "value": "A7B86F8D-1D02-FC28-E050-D20AE3A215F0"
              }
            }
          ],
          "system": "https://fhir.nhs.uk/Id/prescription-order-number",
          "value": "4D62E6-D81015-07E5FD"
        },
        "status": "active",
        "intent": "order",
        "medicationCodeableConcept": {
          "coding": [
            {
              "system": "http://snomed.info/sct",
              "code": "42111000001107",
              "display": "Microgynon 30 tablets (Bayer Plc)"
            }
          ]
        },
        "dispenseRequest": {
          "extension": [
            {
              "url": "https://fhir.nhs.uk/R4/StructureDefinition/Extension-performerSiteType",
              "valueCoding": {
                "system": "https://fhir.nhs.uk/R4/CodeSystem/dispensing-site-preference",
                "code": "0004"
              }
            }
          ],
          "quantity": {
            "value": 63,
            "unit": "tablet",
            "system": "http://snomed.info/sct",
            "code": "428673006"
          }
        },
        "authoredOn": "2020-06-10T12:06:00+00:00",
        "courseOfTherapyType": {
          "coding": [
            {
              "system": "https://fhir.nhs.uk/R4/CodeSystem/medicationrequest-course-of-therapy",
              "code": "continuous-repeat-dispensing",
              "display": "Continuous long term (repeat dispensing)"
            }
          ]
        },
        "dosageInstruction": [
          {
            "text": "As Directed"
          }
        ],
        "subject": {
          "reference": "urn:uuid:B96806F2-0E43-4046-30F3-BD444965AFB3"
        },
        "requester": {
          "reference": "urn:uuid:DBAA616B-E23C-4D53-0F82-B2D178DB79CA"
        },
        "recorder": {
          "reference": "urn:uuid:DBAA616B-E23C-4D53-0F82-B2D178DB79CA"
        },
        "substitution": {
          "allowedBoolean": false
        }
      },
      "fullUrl": "urn:uuid:A7B86F8D-1D86-FC28-E050-D20AE3A215F0"
    },
    {
      "resource": {
        "resourceType": "MedicationRequest",
        "id": "A7B86F8D-1D8B-FC28-E050-D20AE3A215F0",
        "extension": [
          {
            "url": "https://fhir.nhs.uk/R4/StructureDefinition/Extension-prescriptionType",
            "valueCoding": {
              "system": "https://fhir.nhs.uk/R4/CodeSystem/prescription-type",
              "code": "0101"
            }
          },
          {
            "url": "https://fhir.nhs.uk/R4/StructureDefinition/Extension-DM-ResponsiblePractitioner",
            "valueReference": {
              "reference": "urn:uuid:DBAA616B-E23C-4D53-0F82-B2D178DB79CA"
            }
          }
        ],
        "identifier": [
          {
            "system": "https://fhir.nhs.uk/Id/prescription-order-item-number",
            "value": "A7B86F8D-1D8B-FC28-E050-D20AE3A215F0"
          }
        ],
        "groupIdentifier": {
          "extension": [
            {
              "url": "https://fhir.nhs.uk/R4/StructureDefinition/Extension-PrescriptionId",
              "valueIdentifier": {
                "system": "https://fhir.nhs.uk/Id/prescription",
                "value": "A7B86F8D-1D02-FC28-E050-D20AE3A215F0"
              }
            }
          ],
          "system": "https://fhir.nhs.uk/Id/prescription-order-number",
          "value": "4D62E6-D81015-07E5FD"
        },
        "status": "active",
        "intent": "order",
        "medicationCodeableConcept": {
          "coding": [
            {
              "system": "http://snomed.info/sct",
              "code": "7138411000001109",
              "display": "Nelaton catheter female 14Ch ZT02017182 (Unomedical Ltd)"
            }
          ]
        },
        "dispenseRequest": {
          "extension": [
            {
              "url": "https://fhir.nhs.uk/R4/StructureDefinition/Extension-performerSiteType",
              "valueCoding": {
                "system": "https://fhir.nhs.uk/R4/CodeSystem/dispensing-site-preference",
                "code": "0004"
              }
            }
          ],
          "quantity": {
            "value": 10,
            "unit": "catheter",
            "system": "http://snomed.info/sct",
            "code": "3319911000001101"
          }
        },
        "authoredOn": "2020-06-10T12:06:00+00:00",
        "courseOfTherapyType": {
          "coding": [
            {
              "system": "https://fhir.nhs.uk/R4/CodeSystem/medicationrequest-course-of-therapy",
              "code": "continuous-repeat-dispensing",
              "display": "Continuous long term (repeat dispensing)"
            }
          ]
        },
        "dosageInstruction": [
          {
            "text": "As Directed"
          }
        ],
        "subject": {
          "reference": "urn:uuid:B96806F2-0E43-4046-30F3-BD444965AFB3"
        },
        "requester": {
          "reference": "urn:uuid:DBAA616B-E23C-4D53-0F82-B2D178DB79CA"
        },
        "recorder": {
          "reference": "urn:uuid:DBAA616B-E23C-4D53-0F82-B2D178DB79CA"
        },
        "substitution": {
          "allowedBoolean": false
        }
      },
      "fullUrl": "urn:uuid:A7B86F8D-1D8B-FC28-E050-D20AE3A215F0"
    },
    {
      "resource": {
        "resourceType": "MedicationRequest",
        "id": "A7B86F8D-1D90-FC28-E050-D20AE3A215F0",
        "extension": [
          {
            "url": "https://fhir.nhs.uk/R4/StructureDefinition/Extension-prescriptionType",
            "valueCoding": {
              "system": "https://fhir.nhs.uk/R4/CodeSystem/prescription-type",
              "code": "0101"
            }
          },
          {
            "url": "https://fhir.nhs.uk/R4/StructureDefinition/Extension-DM-ResponsiblePractitioner",
            "valueReference": {
              "reference": "urn:uuid:DBAA616B-E23C-4D53-0F82-B2D178DB79CA"
            }
          }
        ],
        "identifier": [
          {
            "system": "https://fhir.nhs.uk/Id/prescription-order-item-number",
            "value": "A7B86F8D-1D90-FC28-E050-D20AE3A215F0"
          }
        ],
        "groupIdentifier": {
          "extension": [
            {
              "url": "https://fhir.nhs.uk/R4/StructureDefinition/Extension-PrescriptionId",
              "valueIdentifier": {
                "system": "https://fhir.nhs.uk/Id/prescription",
                "value": "A7B86F8D-1D02-FC28-E050-D20AE3A215F0"
              }
            }
          ],
          "system": "https://fhir.nhs.uk/Id/prescription-order-number",
          "value": "4D62E6-D81015-07E5FD"
        },
        "status": "active",
        "intent": "order",
        "medicationCodeableConcept": {
          "coding": [
            {
              "system": "http://snomed.info/sct",
              "code": "20988311000001103",
              "display": "Optifast shake oral powder 54g sachets (Flavour Not Specified)"
            }
          ]
        },
        "dispenseRequest": {
          "extension": [
            {
              "url": "https://fhir.nhs.uk/R4/StructureDefinition/Extension-performerSiteType",
              "valueCoding": {
                "system": "https://fhir.nhs.uk/R4/CodeSystem/dispensing-site-preference",
                "code": "0004"
              }
            }
          ],
          "quantity": {
            "value": 54,
            "unit": "sachet",
            "system": "http://snomed.info/sct",
            "code": "3318911000001109"
          }
        },
        "authoredOn": "2020-06-10T12:06:00+00:00",
        "courseOfTherapyType": {
          "coding": [
            {
              "system": "https://fhir.nhs.uk/R4/CodeSystem/medicationrequest-course-of-therapy",
              "code": "continuous-repeat-dispensing",
              "display": "Continuous long term (repeat dispensing)"
            }
          ]
        },
        "dosageInstruction": [
          {
            "text": "As Directed"
          }
        ],
        "subject": {
          "reference": "urn:uuid:B96806F2-0E43-4046-30F3-BD444965AFB3"
        },
        "requester": {
          "reference": "urn:uuid:DBAA616B-E23C-4D53-0F82-B2D178DB79CA"
        },
        "recorder": {
          "reference": "urn:uuid:DBAA616B-E23C-4D53-0F82-B2D178DB79CA"
        },
        "substitution": {
          "allowedBoolean": false
        }
      },
      "fullUrl": "urn:uuid:A7B86F8D-1D90-FC28-E050-D20AE3A215F0"
    },
    {
      "resource": {
        "resourceType": "Patient",
        "id": "B96806F2-0E43-4046-30F3-BD444965AFB3",
        "managingOrganization": {
          "identifier": {
            "value": "D81015",
            "system": "https://fhir.nhs.uk/Id/ods-organization-code"
          }
        },
        "identifier": [
          {
            "system": "https://fhir.nhs.uk/Id/nhs-number",
            "value": "9453740586",
            "extension": [
              {
                "url": "https://fhir.nhs.uk/R4/StructureDefinition/Extension-UKCore-NHSNumberVerificationStatus",
                "valueCodeableConcept": {
                  "coding": [
                    {
                      "system": "https://fhir.nhs.uk/R4/CodeSystem/UKCore-NHSNumberVerificationStatus",
                      "code": "01",
                      "display": "Number present and verified"
                    }
                  ]
                }
              }
            ]
          }
        ],
        "gender": "unknown",
        "birthDate": "1977-03-27",
        "name": [
          {
            "use": "official",
            "family": "PENSON",
            "given": [
              "HEADLEY",
              "TED"
            ],
            "prefix": [
              "MR"
            ]
          }
        ],
        "address": [
          {
            "use": "home",
            "type": "both",
            "line": [
              "10 CRECY CLOSE"
            ],
            "city": "DERBY",
            "postalCode": "DE22 3JU"
          }
        ]
      },
      "fullUrl": "urn:uuid:B96806F2-0E43-4046-30F3-BD444965AFB3"
    },
    {
      "resource": {
        "resourceType": "PractitionerRole",
        "id": "DBAA616B-E23C-4D53-0F82-B2D178DB79CA",
        "identifier": [
          {
            "system": "https://fhir.nhs.uk/Id/sds-role-profile-id",
            "value": "100112897984"
          }
        ],
        "code": [
          {
            "coding": [
              {
                "system": "https://fhir.nhs.uk/R4/CodeSystem/UKCore-SDSJobRoleName",
                "code": "R0260",
                "display": "General Medical Practitioner"
              }
            ]
          }
        ],
        "practitioner": {
          "reference": "urn:uuid:D4B569E7-CCF6-4BB2-029B-34B6F3E82ACF"
        },
        "organization": {
          "reference": "urn:uuid:B65DD3A2-9551-45A3-3E9D-342F8DE14D8F"
        }
      },
      "fullUrl": "urn:uuid:DBAA616B-E23C-4D53-0F82-B2D178DB79CA"
    },
    {
      "resource": {
        "resourceType": "Practitioner",
        "id": "D4B569E7-CCF6-4BB2-029B-34B6F3E82ACF",
        "identifier": [
          {
            "system": "https://fhir.nhs.uk/Id/sds-user-id",
            "value": "8713353"
          }
        ],
        "name": [
          {
            "use": "official",
            "family": "CHANDLER",
            "given": [
              "ANDREW"
            ]
          }
        ],
        "telecom": [
          {
            "system": "phone",
            "value": "tel:01945700223",
            "use": "work"
          }
        ]
      },
      "fullUrl": "urn:uuid:D4B569E7-CCF6-4BB2-029B-34B6F3E82ACF"
    },
    {
      "resource": {
        "resourceType": "Organization",
        "id": "B65DD3A2-9551-45A3-3E9D-342F8DE14D8F",
        "identifier": [
          {
            "system": "https://fhir.nhs.uk/Id/ods-organization-code",
            "value": "D81015"
          }
        ],
        "type": [
          {
            "coding": [
              {
                "system": "https://fhir.nhs.uk/R4/CodeSystem/organisation-type",
                "code": "001",
                "display": "General Medical Practice"
              }
            ]
          }
        ],
        "name": "PARSON DROVE SURGERY",
        "telecom": [
          {
            "system": "phone",
            "value": "tel:01945700223",
            "use": "work"
          }
        ],
        "address": [
          {
            "use": "work",
            "type": "both",
            "line": [
              "240 MAIN ROAD",
              "PARSON DROVE"
            ],
            "city": "WISBECH",
            "district": "CAMBRIDGESHIRE",
            "postalCode": "PE13 4JA"
          }
        ]
      },
      "fullUrl": "urn:uuid:B65DD3A2-9551-45A3-3E9D-342F8DE14D8F"
    }
  ]
}
