{
  "resourceType": "Bundle",
  "id": "f1def066-2443-4a51-ab8f-07d18ba53d32",
  "identifier": {
    "system": "https://tools.ietf.org/html/rfc4122",
    "value": "46724476-31c5-4642-b334-a3e1b816f830"
  },
  "type": "message",
  "entry": [
    {
      "fullUrl": "urn:uuid:ee76929f-9397-4fcb-a3df-83aaa94a63b4",
      "resource": {
        "resourceType": "MessageHeader",
        "id": "ee76929f-9397-4fcb-a3df-83aaa94a63b4",
        "destination": [
          {
            "endpoint": "https://directory.spineservices.nhs.uk/STU3/Organization/FCP99",
            "receiver": {
              "identifier": {
                "system": "https://fhir.nhs.uk/Id/ods-organization-code",
                "value": "FCP99"
              }
            }
          }
        ],
        "sender": {
          "identifier": {
            "system": "https://fhir.nhs.uk/Id/ods-organization-code",
            "value": "X2601"
          },
          "display": "NHS Digital Spine"
        },
        "source": {
          "name": "NHS Spine",
          "endpoint": "https://internal-dev-sandbox.api.service.nhs.uk/electronic-prescriptions/$process-message"
        },
        "response": {
          "code": "ok",
          "identifier": "ffffffff-ffff-4fff-bfff-ffffffffffff"
        },
        "eventCoding": {
          "system": "https://fhir.nhs.uk/CodeSystem/message-event",
          "code": "dispense-notification",
          "display": "Dispense Notification"
        },
        "focus": [
          {
            "reference": "urn:uuid:bc1e64f2-251a-4c13-82a6-6243619b5245"
          },
          {
            "reference": "urn:uuid:14edfa20-4fb5-48fb-8161-a5ef84fe1dd6"
          },
          {
            "reference": "urn:uuid:547f09c2-8af9-41d6-b396-e9883e9380f0"
          },
          {
            "reference": "urn:uuid:999b02c4-8d2f-4b2f-9eed-db89df6b974d"
          },
          {
            "reference": "urn:uuid:e9df14ed-450e-415e-9df3-725616358e56"
          }
        ]
      }
    },
    {
      "fullUrl": "urn:uuid:14edfa20-4fb5-48fb-8161-a5ef84fe1dd6",
      "resource": {
        "resourceType": "MedicationDispense",
        "id": "14edfa20-4fb5-48fb-8161-a5ef84fe1dd6",
        "extension": [
          {
            "url": "https://fhir.nhs.uk/StructureDefinition/Extension-EPS-TaskBusinessStatus",
            "valueCoding": {
              "code": "0007",
              "system": "https://fhir.nhs.uk/CodeSystem/EPS-task-business-status",
              "display": "Not Dispensed"
            }
          }
        ],
        "identifier": [
          {
            "system": "https://fhir.nhs.uk/Id/prescription-dispense-item-number",
            "value": "f5d182b6-f8e4-45a5-853a-a17e8e07f738"
          }
        ],
        "contained": [
          {
            "resourceType": "PractitionerRole",
            "id": "performer",
            "identifier": [
              {
                "system": "https://fhir.nhs.uk/Id/sds-role-profile-id",
                "value": "555086415105"
              }
            ],
            "practitioner": {
              "identifier": {
                "system": "https://fhir.nhs.uk/Id/sds-user-id",
                "value": "3415870201"
              },
              "display": "Mr Peter Potion"
            },
            "organization": {
              "reference": "urn:uuid:2bf9f37c-d88b-4f86-ad5f-373c1416e04b"
            },
            "code": [
              {
                "coding": [
                  {
                    "system": "https://fhir.nhs.uk/CodeSystem/NHSDigital-SDS-JobRoleCode",
                    "code": "S8000:G8000:R8000",
                    "display": "Clinical Practitioner Access Role"
                  }
                ]
              }
            ],
            "telecom": [
              {
                "system": "phone",
                "use": "work",
                "value": "0532567890"
              }
            ]
          },
          {
            "resourceType": "MedicationRequest",
            "id": "m1",
            "extension": [
              {
                "url": "https://fhir.nhs.uk/StructureDefinition/Extension-DM-ResponsiblePractitioner",
                "valueReference": {
                  "reference": "urn:uuid:23ff57ea-4f2b-4f17-8884-88867ad22cd0"
                }
              },
              {
                "url": "https://fhir.nhs.uk/StructureDefinition/Extension-DM-PrescriptionType",
                "valueCoding": {
                  "system": "https://fhir.nhs.uk/CodeSystem/prescription-type",
                  "code": "0101"
                }
              }
            ],
            "identifier": [
              {
                "system": "https://fhir.nhs.uk/Id/prescription-order-item-number",
                "value": "ebaf4a14-3094-322c-e040-950ae0731b49"
              }
            ],
            "status": "active",
            "intent": "order",
            "medicationCodeableConcept": {
              "coding": [
                {
                  "system": "http://snomed.info/sct",
                  "code": "10795711000001100",
                  "display": "Diphtheria / Tetanus / Pertussis (acellular component) / Poliomyelitis (inactivated) / Haemophilus type b conjugate vaccine (adsorbed) powder and suspension for suspension for injection 0.5ml pre-filled syringes"
                }
              ]
            },
            "subject": {
              "reference": "urn:uuid:0d6077a5-ff37-44a2-8b04-6bc14d6c2bcc"
            },
            "authoredOn": "2013-11-21T12:11:00+00:00",
            "category": [
              {
                "coding": [
                  {
                    "system": "http://terminology.hl7.org/CodeSystem/medicationrequest-category",
                    "code": "outpatient",
                    "display": "Outpatient"
                  }
                ]
              }
            ],
            "requester": {
              "reference": "urn:uuid:23ff57ea-4f2b-4f17-8884-88867ad22cd0"
            },
            "groupIdentifier": {
              "system": "https://fhir.nhs.uk/Id/prescription-order-number",
              "value": "145981-B83002-5ABE9Z",
              "extension": [
                {
                  "url": "https://fhir.nhs.uk/StructureDefinition/Extension-DM-PrescriptionId",
                  "valueIdentifier": {
                    "system": "https://fhir.nhs.uk/Id/prescription",
                    "value": "ebaf4a14-2fed-322c-e040-950ae0731b49"
                  }
                }
              ]
            },
            "courseOfTherapyType": {
              "coding": [
                {
                  "system": "http://terminology.hl7.org/CodeSystem/medicationrequest-course-of-therapy",
                  "code": "acute",
                  "display": "Short course (acute) therapy"
                }
              ]
            },
            "dosageInstruction": [
              {
                "text": "As Directed"
              }
            ],
            "dispenseRequest": {
              "extension": [
                {
                  "url": "https://fhir.nhs.uk/StructureDefinition/Extension-DM-PerformerSiteType",
                  "valueCoding": {
                    "system": "https://fhir.nhs.uk/CodeSystem/dispensing-site-preference",
                    "code": "P1"
                  }
                }
              ],
              "numberOfRepeatsAllowed": 0,
              "quantity": {
                "value": 1,
                "unit": "pre-filled disposable injection",
                "system": "http://snomed.info/sct",
                "code": "non_dmd_units"
              },
              "expectedSupplyDuration": {
                "unit": "days",
                "value": 28,
                "system": "http://unitsofmeasure.org",
                "code": "d"
              },
              "performer": {
                "identifier": {
                  "system": "https://fhir.nhs.uk/Id/ods-organization-code",
                  "value": "FCP99"
                }
              }
            },
            "substitution": {
              "allowedBoolean": false
            }
          }
        ],
        "status": "unknown",
        "statusReasonCodeableConcept": {
          "coding": [
            {
              "code": "0006",
              "system": "https://fhir.nhs.uk/CodeSystem/medicationdispense-status-reason",
              "display": "Illegal NHS prescription"
            }
          ]
        },
        "medicationCodeableConcept": {
          "coding": [
            {
              "system": "http://snomed.info/sct",
              "code": "10795711000001100",
              "display": "Diphtheria / Tetanus / Pertussis (acellular component) / Poliomyelitis (inactivated) / Haemophilus type b conjugate vaccine (adsorbed) powder and suspension for suspension for injection 0.5ml pre-filled syringes"
            }
          ]
        },
        "subject": {
          "reference": "urn:uuid:bc1e64f2-251a-4c13-82a6-6243619b5245",
          "identifier": {
            "system": "https://fhir.nhs.uk/Id/nhs-number",
            "value": "9446362962"
          }
        },
        "performer": [
          {
            "actor": {
              "reference": "#performer"
            }
          }
        ],
        "authorizingPrescription": [
          {
            "reference": "#m1"
          }
        ],
        "type": {
          "coding": [
            {
              "code": "0002",
              "system": "https://fhir.nhs.uk/CodeSystem/medicationdispense-type",
              "display": "Item not dispensed"
            }
          ]
        },
        "quantity": {
          "value": 0,
          "unit": "pre-filled disposable injection",
          "system": "http://snomed.info/sct",
          "code": "non_dmd_units"
        },
        "daysSupply": {
          "unit": "days",
          "value": 28,
          "system": "http://unitsofmeasure.org",
          "code": "d"
        },
        "whenHandedOver": "2022-10-13T12:52:08.476Z",
        "dosageInstruction": [
          {
            "text": "As Directed"
          }
        ]
      }
    },
    {
      "fullUrl": "urn:uuid:547f09c2-8af9-41d6-b396-e9883e9380f0",
      "resource": {
        "resourceType": "MedicationDispense",
        "id": "547f09c2-8af9-41d6-b396-e9883e9380f0",
        "extension": [
          {
            "url": "https://fhir.nhs.uk/StructureDefinition/Extension-EPS-TaskBusinessStatus",
            "valueCoding": {
              "code": "0007",
              "system": "https://fhir.nhs.uk/CodeSystem/EPS-task-business-status",
              "display": "Not Dispensed"
            }
          }
        ],
        "identifier": [
          {
            "system": "https://fhir.nhs.uk/Id/prescription-dispense-item-number",
            "value": "9d33d9b5-6a2d-440c-8fe2-a3e95b6fec30"
          }
        ],
        "contained": [
          {
            "resourceType": "PractitionerRole",
            "id": "performer",
            "identifier": [
              {
                "system": "https://fhir.nhs.uk/Id/sds-role-profile-id",
                "value": "555086415105"
              }
            ],
            "practitioner": {
              "identifier": {
                "system": "https://fhir.nhs.uk/Id/sds-user-id",
                "value": "3415870201"
              },
              "display": "Mr Peter Potion"
            },
            "organization": {
              "reference": "urn:uuid:2bf9f37c-d88b-4f86-ad5f-373c1416e04b"
            },
            "code": [
              {
                "coding": [
                  {
                    "system": "https://fhir.nhs.uk/CodeSystem/NHSDigital-SDS-JobRoleCode",
                    "code": "S8000:G8000:R8000",
                    "display": "Clinical Practitioner Access Role"
                  }
                ]
              }
            ],
            "telecom": [
              {
                "system": "phone",
                "use": "work",
                "value": "0532567890"
              }
            ]
          },
          {
            "resourceType": "MedicationRequest",
            "id": "m1",
            "extension": [
              {
                "url": "https://fhir.nhs.uk/StructureDefinition/Extension-DM-ResponsiblePractitioner",
                "valueReference": {
                  "reference": "urn:uuid:23ff57ea-4f2b-4f17-8884-88867ad22cd0"
                }
              },
              {
                "url": "https://fhir.nhs.uk/StructureDefinition/Extension-DM-PrescriptionType",
                "valueCoding": {
                  "system": "https://fhir.nhs.uk/CodeSystem/prescription-type",
                  "code": "0101"
                }
              }
            ],
            "identifier": [
              {
                "system": "https://fhir.nhs.uk/Id/prescription-order-item-number",
                "value": "ebaf4a14-3099-322c-e040-950ae0731b49"
              }
            ],
            "status": "active",
            "intent": "order",
            "medicationCodeableConcept": {
              "coding": [
                {
                  "system": "http://snomed.info/sct",
                  "code": "10816511000001101",
                  "display": "Shelter Soft & Secure ileostomy bag with filter, bio dressing resin and microporous adhesive, extra large SS3600/00 Cut to fit 13mm-80mm Beige (Charles S. Bullen Stomacare Ltd)"
                }
              ]
            },
            "subject": {
              "reference": "urn:uuid:0d6077a5-ff37-44a2-8b04-6bc14d6c2bcc"
            },
            "authoredOn": "2013-11-21T12:11:00+00:00",
            "category": [
              {
                "coding": [
                  {
                    "system": "http://terminology.hl7.org/CodeSystem/medicationrequest-category",
                    "code": "outpatient",
                    "display": "Outpatient"
                  }
                ]
              }
            ],
            "requester": {
              "reference": "urn:uuid:23ff57ea-4f2b-4f17-8884-88867ad22cd0"
            },
            "groupIdentifier": {
              "system": "https://fhir.nhs.uk/Id/prescription-order-number",
              "value": "145981-B83002-5ABE9Z",
              "extension": [
                {
                  "url": "https://fhir.nhs.uk/StructureDefinition/Extension-DM-PrescriptionId",
                  "valueIdentifier": {
                    "system": "https://fhir.nhs.uk/Id/prescription",
                    "value": "ebaf4a14-2fed-322c-e040-950ae0731b49"
                  }
                }
              ]
            },
            "courseOfTherapyType": {
              "coding": [
                {
                  "system": "http://terminology.hl7.org/CodeSystem/medicationrequest-course-of-therapy",
                  "code": "acute",
                  "display": "Short course (acute) therapy"
                }
              ]
            },
            "dosageInstruction": [
              {
                "text": "As Directed"
              }
            ],
            "dispenseRequest": {
              "extension": [
                {
                  "url": "https://fhir.nhs.uk/StructureDefinition/Extension-DM-PerformerSiteType",
                  "valueCoding": {
                    "system": "https://fhir.nhs.uk/CodeSystem/dispensing-site-preference",
                    "code": "P1"
                  }
                }
              ],
              "numberOfRepeatsAllowed": 0,
              "quantity": {
                "value": 15,
                "unit": "device",
                "system": "http://snomed.info/sct",
                "code": "3318711000001107"
              },
              "expectedSupplyDuration": {
                "unit": "days",
                "value": 28,
                "system": "http://unitsofmeasure.org",
                "code": "d"
              },
              "performer": {
                "identifier": {
                  "system": "https://fhir.nhs.uk/Id/ods-organization-code",
                  "value": "FCP99"
                }
              }
            },
            "substitution": {
              "allowedBoolean": false
            }
          }
        ],
        "status": "unknown",
        "statusReasonCodeableConcept": {
          "coding": [
            {
              "code": "0001",
              "system": "https://fhir.nhs.uk/CodeSystem/medicationdispense-status-reason",
              "display": "Not required as instructed by the patient"
            }
          ]
        },
        "medicationCodeableConcept": {
          "coding": [
            {
              "system": "http://snomed.info/sct",
              "code": "10816511000001101",
              "display": "Shelter Soft & Secure ileostomy bag with filter, bio dressing resin and microporous adhesive, extra large SS3600/00 Cut to fit 13mm-80mm Beige (Charles S. Bullen Stomacare Ltd)"
            }
          ]
        },
        "subject": {
          "reference": "urn:uuid:bc1e64f2-251a-4c13-82a6-6243619b5245",
          "identifier": {
            "system": "https://fhir.nhs.uk/Id/nhs-number",
            "value": "9446362962"
          }
        },
        "performer": [
          {
            "actor": {
              "reference": "#performer"
            }
          }
        ],
        "authorizingPrescription": [
          {
            "reference": "#m1"
          }
        ],
        "type": {
          "coding": [
            {
              "code": "0002",
              "system": "https://fhir.nhs.uk/CodeSystem/medicationdispense-type",
              "display": "Item not dispensed"
            }
          ]
        },
        "quantity": {
          "value": 0,
          "unit": "device",
          "system": "http://snomed.info/sct",
          "code": "3318711000001107"
        },
        "daysSupply": {
          "unit": "days",
          "value": 28,
          "system": "http://unitsofmeasure.org",
          "code": "d"
        },
        "whenHandedOver": "2022-10-13T12:52:08.476Z",
        "dosageInstruction": [
          {
            "text": "As Directed"
          }
        ]
      }
    },
    {
      "fullUrl": "urn:uuid:999b02c4-8d2f-4b2f-9eed-db89df6b974d",
      "resource": {
        "resourceType": "MedicationDispense",
        "id": "999b02c4-8d2f-4b2f-9eed-db89df6b974d",
        "extension": [
          {
            "url": "https://fhir.nhs.uk/StructureDefinition/Extension-EPS-TaskBusinessStatus",
            "valueCoding": {
              "code": "0007",
              "system": "https://fhir.nhs.uk/CodeSystem/EPS-task-business-status",
              "display": "Not Dispensed"
            }
          }
        ],
        "identifier": [
          {
            "system": "https://fhir.nhs.uk/Id/prescription-dispense-item-number",
            "value": "35df72f9-6d22-4f37-953d-f9f253b02ae9"
          }
        ],
        "contained": [
          {
            "resourceType": "PractitionerRole",
            "id": "performer",
            "identifier": [
              {
                "system": "https://fhir.nhs.uk/Id/sds-role-profile-id",
                "value": "555086415105"
              }
            ],
            "practitioner": {
              "identifier": {
                "system": "https://fhir.nhs.uk/Id/sds-user-id",
                "value": "3415870201"
              },
              "display": "Mr Peter Potion"
            },
            "organization": {
              "reference": "urn:uuid:2bf9f37c-d88b-4f86-ad5f-373c1416e04b"
            },
            "code": [
              {
                "coding": [
                  {
                    "system": "https://fhir.nhs.uk/CodeSystem/NHSDigital-SDS-JobRoleCode",
                    "code": "S8000:G8000:R8000",
                    "display": "Clinical Practitioner Access Role"
                  }
                ]
              }
            ],
            "telecom": [
              {
                "system": "phone",
                "use": "work",
                "value": "0532567890"
              }
            ]
          },
          {
            "resourceType": "MedicationRequest",
            "id": "m1",
            "extension": [
              {
                "url": "https://fhir.nhs.uk/StructureDefinition/Extension-DM-ResponsiblePractitioner",
                "valueReference": {
                  "reference": "urn:uuid:23ff57ea-4f2b-4f17-8884-88867ad22cd0"
                }
              },
              {
                "url": "https://fhir.nhs.uk/StructureDefinition/Extension-DM-PrescriptionType",
                "valueCoding": {
                  "system": "https://fhir.nhs.uk/CodeSystem/prescription-type",
                  "code": "0101"
                }
              }
            ],
            "identifier": [
              {
                "system": "https://fhir.nhs.uk/Id/prescription-order-item-number",
                "value": "ebaf4a14-309e-322c-e040-950ae0731b49"
              }
            ],
            "status": "active",
            "intent": "order",
            "medicationCodeableConcept": {
              "coding": [
                {
                  "system": "http://snomed.info/sct",
                  "code": "7199311000001102",
                  "display": "Urinary all silicone suprapubic catheter with integral balloon and shaped tip long 16Ch 084616101 10ml balloon (L.In.C. (Leicester Integrated Clinical) Medical Systems Ltd)"
                }
              ]
            },
            "subject": {
              "reference": "urn:uuid:0d6077a5-ff37-44a2-8b04-6bc14d6c2bcc"
            },
            "authoredOn": "2013-11-21T12:11:00+00:00",
            "category": [
              {
                "coding": [
                  {
                    "system": "http://terminology.hl7.org/CodeSystem/medicationrequest-category",
                    "code": "outpatient",
                    "display": "Outpatient"
                  }
                ]
              }
            ],
            "requester": {
              "reference": "urn:uuid:23ff57ea-4f2b-4f17-8884-88867ad22cd0"
            },
            "groupIdentifier": {
              "system": "https://fhir.nhs.uk/Id/prescription-order-number",
              "value": "145981-B83002-5ABE9Z",
              "extension": [
                {
                  "url": "https://fhir.nhs.uk/StructureDefinition/Extension-DM-PrescriptionId",
                  "valueIdentifier": {
                    "system": "https://fhir.nhs.uk/Id/prescription",
                    "value": "ebaf4a14-2fed-322c-e040-950ae0731b49"
                  }
                }
              ]
            },
            "courseOfTherapyType": {
              "coding": [
                {
                  "system": "http://terminology.hl7.org/CodeSystem/medicationrequest-course-of-therapy",
                  "code": "acute",
                  "display": "Short course (acute) therapy"
                }
              ]
            },
            "dosageInstruction": [
              {
                "text": "As Directed"
              }
            ],
            "dispenseRequest": {
              "extension": [
                {
                  "url": "https://fhir.nhs.uk/StructureDefinition/Extension-DM-PerformerSiteType",
                  "valueCoding": {
                    "system": "https://fhir.nhs.uk/CodeSystem/dispensing-site-preference",
                    "code": "P1"
                  }
                }
              ],
              "numberOfRepeatsAllowed": 0,
              "quantity": {
                "value": 1,
                "unit": "catheter",
                "system": "http://snomed.info/sct",
                "code": "3319911000001101"
              },
              "expectedSupplyDuration": {
                "unit": "days",
                "value": 28,
                "system": "http://unitsofmeasure.org",
                "code": "d"
              },
              "performer": {
                "identifier": {
                  "system": "https://fhir.nhs.uk/Id/ods-organization-code",
                  "value": "FCP99"
                }
              }
            },
            "substitution": {
              "allowedBoolean": false
            }
          }
        ],
        "status": "unknown",
        "statusReasonCodeableConcept": {
          "coding": [
            {
              "code": "0005",
              "system": "https://fhir.nhs.uk/CodeSystem/medicationdispense-status-reason",
              "display": "Prescription cancellation due to death"
            }
          ]
        },
        "medicationCodeableConcept": {
          "coding": [
            {
              "system": "http://snomed.info/sct",
              "code": "7199311000001102",
              "display": "Urinary all silicone suprapubic catheter with integral balloon and shaped tip long 16Ch 084616101 10ml balloon (L.In.C. (Leicester Integrated Clinical) Medical Systems Ltd)"
            }
          ]
        },
        "subject": {
          "reference": "urn:uuid:bc1e64f2-251a-4c13-82a6-6243619b5245",
          "identifier": {
            "system": "https://fhir.nhs.uk/Id/nhs-number",
            "value": "9446362962"
          }
        },
        "performer": [
          {
            "actor": {
              "reference": "#performer"
            }
          }
        ],
        "authorizingPrescription": [
          {
            "reference": "#m1"
          }
        ],
        "type": {
          "coding": [
            {
              "code": "0002",
              "system": "https://fhir.nhs.uk/CodeSystem/medicationdispense-type",
              "display": "Item not dispensed"
            }
          ]
        },
        "quantity": {
          "value": 0,
          "unit": "catheter",
          "system": "http://snomed.info/sct",
          "code": "3319911000001101"
        },
        "daysSupply": {
          "unit": "days",
          "value": 28,
          "system": "http://unitsofmeasure.org",
          "code": "d"
        },
        "whenHandedOver": "2022-10-13T12:52:08.476Z",
        "dosageInstruction": [
          {
            "text": "As Directed"
          }
        ]
      }
    },
    {
      "fullUrl": "urn:uuid:e9df14ed-450e-415e-9df3-725616358e56",
      "resource": {
        "resourceType": "MedicationDispense",
        "id": "e9df14ed-450e-415e-9df3-725616358e56",
        "extension": [
          {
            "url": "https://fhir.nhs.uk/StructureDefinition/Extension-EPS-TaskBusinessStatus",
            "valueCoding": {
              "code": "0007",
              "system": "https://fhir.nhs.uk/CodeSystem/EPS-task-business-status",
              "display": "Not Dispensed"
            }
          }
        ],
        "identifier": [
          {
            "system": "https://fhir.nhs.uk/Id/prescription-dispense-item-number",
            "value": "447d4ecc-c8e6-4d17-b10c-995e744806be"
          }
        ],
        "contained": [
          {
            "resourceType": "PractitionerRole",
            "id": "performer",
            "identifier": [
              {
                "system": "https://fhir.nhs.uk/Id/sds-role-profile-id",
                "value": "555086415105"
              }
            ],
            "practitioner": {
              "identifier": {
                "system": "https://fhir.nhs.uk/Id/sds-user-id",
                "value": "3415870201"
              },
              "display": "Mr Peter Potion"
            },
            "organization": {
              "reference": "urn:uuid:2bf9f37c-d88b-4f86-ad5f-373c1416e04b"
            },
            "code": [
              {
                "coding": [
                  {
                    "system": "https://fhir.nhs.uk/CodeSystem/NHSDigital-SDS-JobRoleCode",
                    "code": "S8000:G8000:R8000",
                    "display": "Clinical Practitioner Access Role"
                  }
                ]
              }
            ],
            "telecom": [
              {
                "system": "phone",
                "use": "work",
                "value": "0532567890"
              }
            ]
          },
          {
            "resourceType": "MedicationRequest",
            "id": "m1",
            "extension": [
              {
                "url": "https://fhir.nhs.uk/StructureDefinition/Extension-DM-ResponsiblePractitioner",
                "valueReference": {
                  "reference": "urn:uuid:23ff57ea-4f2b-4f17-8884-88867ad22cd0"
                }
              },
              {
                "url": "https://fhir.nhs.uk/StructureDefinition/Extension-DM-PrescriptionType",
                "valueCoding": {
                  "system": "https://fhir.nhs.uk/CodeSystem/prescription-type",
                  "code": "0101"
                }
              }
            ],
            "identifier": [
              {
                "system": "https://fhir.nhs.uk/Id/prescription-order-item-number",
                "value": "ebaf4a14-30a3-322c-e040-950ae0731b49"
              }
            ],
            "status": "active",
            "intent": "order",
            "medicationCodeableConcept": {
              "coding": [
                {
                  "system": "http://snomed.info/sct",
                  "code": "11416711000001106",
                  "display": "Interferon beta-1a 6million units/0.5ml solution for injection pre-filled syringes and Interferon beta-1a 2.4million units/0.2ml solution for injection pre-filled syringes"
                }
              ]
            },
            "subject": {
              "reference": "urn:uuid:0d6077a5-ff37-44a2-8b04-6bc14d6c2bcc"
            },
            "authoredOn": "2013-11-21T12:11:00+00:00",
            "category": [
              {
                "coding": [
                  {
                    "system": "http://terminology.hl7.org/CodeSystem/medicationrequest-category",
                    "code": "outpatient",
                    "display": "Outpatient"
                  }
                ]
              }
            ],
            "requester": {
              "reference": "urn:uuid:23ff57ea-4f2b-4f17-8884-88867ad22cd0"
            },
            "groupIdentifier": {
              "system": "https://fhir.nhs.uk/Id/prescription-order-number",
              "value": "145981-B83002-5ABE9Z",
              "extension": [
                {
                  "url": "https://fhir.nhs.uk/StructureDefinition/Extension-DM-PrescriptionId",
                  "valueIdentifier": {
                    "system": "https://fhir.nhs.uk/Id/prescription",
                    "value": "ebaf4a14-2fed-322c-e040-950ae0731b49"
                  }
                }
              ]
            },
            "courseOfTherapyType": {
              "coding": [
                {
                  "system": "http://terminology.hl7.org/CodeSystem/medicationrequest-course-of-therapy",
                  "code": "acute",
                  "display": "Short course (acute) therapy"
                }
              ]
            },
            "dosageInstruction": [
              {
                "text": "As Directed"
              }
            ],
            "dispenseRequest": {
              "extension": [
                {
                  "url": "https://fhir.nhs.uk/StructureDefinition/Extension-DM-PerformerSiteType",
                  "valueCoding": {
                    "system": "https://fhir.nhs.uk/CodeSystem/dispensing-site-preference",
                    "code": "P1"
                  }
                }
              ],
              "numberOfRepeatsAllowed": 0,
              "quantity": {
                "value": 12,
                "unit": "pre-filled disposable injection",
                "system": "http://snomed.info/sct",
                "code": "non_dmd_units"
              },
              "expectedSupplyDuration": {
                "unit": "days",
                "value": 28,
                "system": "http://unitsofmeasure.org",
                "code": "d"
              },
              "performer": {
                "identifier": {
                  "system": "https://fhir.nhs.uk/Id/ods-organization-code",
                  "value": "FCP99"
                }
              }
            },
            "substitution": {
              "allowedBoolean": false
            }
          }
        ],
        "status": "unknown",
        "statusReasonCodeableConcept": {
          "coding": [
            {
              "code": "0002",
              "system": "https://fhir.nhs.uk/CodeSystem/medicationdispense-status-reason",
              "display": "Clinically unsuitable"
            }
          ]
        },
        "medicationCodeableConcept": {
          "coding": [
            {
              "system": "http://snomed.info/sct",
              "code": "11416711000001106",
              "display": "Interferon beta-1a 6million units/0.5ml solution for injection pre-filled syringes and Interferon beta-1a 2.4million units/0.2ml solution for injection pre-filled syringes"
            }
          ]
        },
        "subject": {
          "reference": "urn:uuid:bc1e64f2-251a-4c13-82a6-6243619b5245",
          "identifier": {
            "system": "https://fhir.nhs.uk/Id/nhs-number",
            "value": "9446362962"
          }
        },
        "performer": [
          {
            "actor": {
              "reference": "#performer"
            }
          }
        ],
        "authorizingPrescription": [
          {
            "reference": "#m1"
          }
        ],
        "type": {
          "coding": [
            {
              "code": "0002",
              "system": "https://fhir.nhs.uk/CodeSystem/medicationdispense-type",
              "display": "Item not dispensed"
            }
          ]
        },
        "quantity": {
          "value": 0,
          "unit": "pre-filled disposable injection",
          "system": "http://snomed.info/sct",
          "code": "non_dmd_units"
        },
        "daysSupply": {
          "unit": "days",
          "value": 28,
          "system": "http://unitsofmeasure.org",
          "code": "d"
        },
        "whenHandedOver": "2022-10-13T12:52:08.476Z",
        "dosageInstruction": [
          {
            "text": "As Directed"
          }
        ]
      }
    },
    {
      "fullUrl": "urn:uuid:bc1e64f2-251a-4c13-82a6-6243619b5245",
      "resource": {
        "resourceType": "Patient",
        "id": "bc1e64f2-251a-4c13-82a6-6243619b5245",
        "identifier": [
          {
            "system": "https://fhir.nhs.uk/Id/nhs-number",
            "value": "9446362962"
          }
        ],
        "name": [
          {
            "use": "usual",
            "family": "BATTERSBY",
            "given": [
              "BYSSHE",
              "WILLIS"
            ],
            "prefix": [
              "MR"
            ],
            "suffix": [
              null
            ]
          }
        ],
        "gender": "male",
        "birthDate": "1974-07-29",
        "address": [
          {
            "use": "home",
            "line": [
              "10 WARDEN CLOSE",
              "STOCKTON-ON-TEES",
              "CLEVELAND"
            ],
            "postalCode": "TS19 8LN"
          }
        ],
        "generalPractitioner": [
          {
            "identifier": {
              "system": "https://fhir.nhs.uk/Id/ods-organization-code",
              "value": "B83002"
            }
          }
        ]
      }
    },
    {
      "fullUrl": "urn:uuid:2bf9f37c-d88b-4f86-ad5f-373c1416e04b",
      "resource": {
        "resourceType": "Organization",
        "extension":  [
          {
            "url": "https://fhir.nhs.uk/StructureDefinition/Extension-ODS-OrganisationRelationships",
            "extension":  [
              {
                "url": "reimbursementAuthority",
                "valueIdentifier": {
                  "system": "https://fhir.nhs.uk/Id/ods-organization-code",
                  "value": "T1450"
                }
              }
            ]
          }
        ],
        "identifier": [
          {
            "system": "https://fhir.nhs.uk/Id/ods-organization-code",
            "value": "VNE51"
          }
        ],
        "id": "2bf9f37c-d88b-4f86-ad5f-373c1416e04b",
        "address": [
          {
            "city": "West Yorkshire",
            "use": "work",
            "line": [
              "17 Austhorpe Road",
              "Crossgates",
              "Leeds"
            ],
            "postalCode": "LS15 8BA"
          }
        ],
        "active": true,
        "type": [
          {
            "coding": [
              {
                "system": "https://fhir.nhs.uk/CodeSystem/organisation-role",
                "code": "182",
                "display": "PHARMACY"
              }
            ]
          }
        ],
        "name": "The Simple Pharmacy",
        "telecom": [
          {
            "system": "phone",
            "use": "work",
            "value": "0113 3180277"
          }
        ]
      }
    }
  ]
}
